<Bundle xmlns="http://hl7.org/fhir">
    <id value="4fe6f9e2-d10a-4956-aae5-091e810090e1"/>
    <meta>
        <lastUpdated value="2015-08-24T16:37:53.000+05:30"/>
    </meta>
    <type value="document"/>
    <entry>
        <resource>
            <Composition xmlns="http://hl7.org/fhir">
                <identifier>
                    <value value="urn:uuid:bce6c82a-01ec-482b-8dee-12240f372a38"/>
                </identifier>
                <date value="2014-07-10T16:05:09+05:30"/>
                <type>
                    <coding>
                        <system value="http://hl7.org/fhir/vs/doc-typecodes"/>
                        <code value="51899-3"/>
                        <display value="Details Document"/>
                    </coding>
                </type>
                <status value="final"/>
                <confidentiality value="N"/>
                <subject>
                    <reference value="http://mci.com//api/default/patients/HIDA764177"/>
                    <display value="HIDA764177"/>
                </subject>
                <author>
                    <reference value="http://www.fr.com/10000069.json"/>
                </author>
                <encounter>
                    <reference value="urn:uuid:4d2f9872-4df1-438e-9d72-0a8b161d409b"/>
                </encounter>
                <section>
                    <content>
                        <reference value="urn:uuid:4d2f9872-4df1-438e-9d72-0a8b161d409b"/>
                        <display value="Encounter"/>
                    </content>
                </section>
                <section>
                    <content>
                        <reference value="urn:uuid:4e06a589-cc74-4318-abad-d748fa8268ea"/>
                        <display value="Diagnosis"/>
                    </content>
                </section>
                <section>
                    <content>
                        <reference value="urn:uuid:4e06a589-cc74-4318-abad-e74efa8268ea"/>
                        <display value="Diagnosis"/>
                    </content>
                </section>
            </Composition>
        </resource>
    </entry>
    <entry>
        <base value="urn:uuid:"/>
        <resource>
            <Encounter xmlns="http://hl7.org/fhir">
                <id value="4d2f9872-4df1-438e-9d72-0a8b161d409b"/>
                <identifier>
                    <value value="urn:uuid:4d2f9872-4df1-438e-9d72-0a8b161d409b"/>
                </identifier>
                <status value="finished"/>
                <class value="outpatient"/>
                <type>
                    <text value="OPD"/>
                </type>
                <patient>
                    <reference value="http://mci.com//api/default/patients/HIDA764177"/>
                    <display value="HIDA764177"/>
                </patient>
                <participant>
                    <individual>
                        <reference value="http://www.pr.com/812.json"/>
                    </individual>
                </participant>
                <serviceProvider>
                    <reference value="http://www.fr.com/10000069.json"/>
                </serviceProvider>
            </Encounter>
        </resource>
    </entry>
    <entry>
        <base value="urn:uuid:"/>
        <resource>
            <Condition xmlns="http://hl7.org/fhir">
                <id value="4e06a589-cc74-4318-abad-d748fa8268ea"/>
                <identifier>
                    <value value="urn:uuid:4e06a589-cc74-4318-abad-d748fa8268ea"/>
                </identifier>
                <patient>
                    <reference value="http://mci.com//api/default/patients/HIDA764177"/>
                    <display value="HIDA764177"/>
                </patient>
                <encounter>
                    <reference value="urn:uuid:urn:uuid:4d2f9872-4df1-438e-9d72-0a8b161d409b"/>
                </encounter>
                <asserter>
                    <reference value="http://hrmtest.dghs.gov.bd/api/1.0/providers/812.json"/>
                </asserter>
                <dateAsserted value="2015-08-24"/>
                <code>
                    <coding>
                        <system value="http://192.168.33.18/openmrs/ws/rest/v1/concept/f34f6020-9e33-4332-b7a5-bc9d464cb438"/>
                        <code value="f34f6020-9e33-4332-b7a5-bc9d464cb438"/>
                        <display value="TestWithoutRefTerm"/>
                    </coding>
                </code>
                <category>
                    <coding>
                        <system value="http://hl7.org/fhir/condition-category"/>
                        <code value="diagnosis"/>
                        <display value="Diagnosis"/>
                    </coding>
                </category>
                <clinicalStatus value="provisional"/>
            </Condition>
        </resource>
    </entry>
    <entry>
        <base value="urn:uuid:"/>
        <resource>
            <Condition xmlns="http://hl7.org/fhir">
                <id value="4e06a589-cc74-4318-abad-e74efa8268ea"/>
                <identifier>
                    <value value="urn:uuid:4e06a589-cc74-4318-abad-e74efa8268ea"/>
                </identifier>
                <patient>
                    <reference value="http://mci.com//api/default/patients/HIDA764177"/>
                    <display value="HIDA764177"/>
                </patient>
                <encounter>
                    <reference value="urn:uuid:urn:uuid:4d2f9872-4df1-438e-9d72-0a8b161d409b"/>
                </encounter>
                <asserter>
                    <reference value="http://hrmtest.dghs.gov.bd/api/1.0/providers/812.json"/>
                </asserter>
                <dateAsserted value="2015-08-24"/>
                <code>
                    <coding>
                        <system value="http://192.168.33.18/openmrs/ws/rest/v1/concept/96f64eb2-4d94-40ab-a386-a62ba03ff6b2"/>
                        <code value="A00.0"/>
                        <display value="Cholera Vibrio"/>
                    </coding>
                </code>
                <category>
                    <coding>
                        <system value="http://hl7.org/fhir/condition-category"/>
                        <code value="diagnosis"/>
                        <display value="Diagnosis"/>
                    </coding>
                </category>
                <clinicalStatus value="provisional"/>
            </Condition>
        </resource>
    </entry>
</Bundle>
