{
    "resourceType": "Bundle",
    "title": "Encounter",
    "id": "dc1f5f99-fb2f-4ba8-bf24-14ccdee498f9",
    "updated": "2014-07-10T16:05:09+05:30",
    "entry": [
        {
            "title": "Composition",
            "id": "Encounter - 26504add-2d96-44d0-a2f6-d849dc090254",
            "content": {
                "resourceType": "Composition",
                "identifier": {
                    "value": "Encounter - 26504add-2d96-44d0-a2f6-d849dc090254"
                },
                "date": "2014-07-10T16:05:09+05:30",
                "status": "final",
                "encounter": {
                    "reference": "26504add-2d96-44d0-a2f6-d849dc090254"
                },
                "section": [
                    {
                        "content": {
                            "reference": "26504add-2d96-44d0-a2f6-d849dc090254",
                            "display": "encounter"
                        }
                    },
                    {
                        "content": {
                            "reference": "cf64a660-973b-41ec-9efe-2c988dd0c904",
                            "display": "diagnosis"
                        }
                    },
                    {
                        "content": {
                            "reference": "cdf1f685-71a4-4909-b4f4-3a58af88b9b3",
                            "display": "diagnosis"
                        }
                    }
                ]
            }
        },
        {
            "title": "Encounter",
            "id": "26504add-2d96-44d0-a2f6-d849dc090254",
            "content": {
                "resourceType": "Encounter",
                "identifier": [
                    {
                        "value": "26504add-2d96-44d0-a2f6-d849dc090254"
                    }
                ],
                "status": "finished",
                "class": "outpatient",
                "type": [
                    {
                        "text": "OPD"
                    }
                ],
                "subject": {
                    "reference": "HIDA764177"
                },
                "participant": [
                    {
                        "individual": {
                            "reference": "1cbd8e35-5bcb-4914-a982-be14817b4ca2"
                        }
                    }
                ],
                "indication": {
                    "reference": "26504add-2d96-44d0-a2f6-d849dc090254"
                },
                "serviceProvider": {
                    "reference": "Bahmni"
                }
            }
        },
        {
            "title": "diagnosis",
            "id": "cf64a660-973b-41ec-9efe-2c988dd0c904",
            "content": {
                "resourceType": "Condition",
                "identifier": [
                    {
                        "value": "cf64a660-973b-41ec-9efe-2c988dd0c904"
                    }
                ],
                "subject": {
                    "reference": "HIDA764177"
                },
                "encounter": {
                    "reference": "26504add-2d96-44d0-a2f6-d849dc090254"
                },
                "asserter": {
                    "reference": "1cbd8e35-5bcb-4914-a982-be14817b4ca2"
                },
                "code": {
                    "coding": [
                        {
                            "system": "ICD10-BD",
                            "code": "A00.0",
                            "display": "Cholera Vibrio"
                        }
                    ]
                },
                "category": {
                    "coding": [
                        {
                            "system": "http://hl7.org/fhir/vs/condition-category",
                            "code": "diagnosis",
                            "display": "diagnosis"
                        }
                    ]
                },
                "status": "confirmed",
                "severity": {
                    "coding": [
                        {
                            "system": "http://hl7.org/fhir/vs/condition-severity",
                            "code": "6736007",
                            "display": "Moderate"
                        }
                    ]
                },
                "onsetDateTime": "2014-07-10T16:05:31+05:30"
            }
        },
        {
            "title": "Complaint",
            "id": "a6975b3f-8195-49a5-a3d6-de0dfa96a24a",
            "content": {
                "resourceType": "Condition",
                "identifier": [
                    {
                        "value": "a6975b3f-8195-49a5-a3d6-de0dfa96a24a"
                    }
                ],
                "subject": {
                    "reference": "5892401485081214977"
                },
                "encounter": {
                    "reference": "d87b8d00-0321-4d31-9b7c-6ec572853e7a",
                    "display": "encounter"
                },
                "asserter": {
                    "reference": "7e2bd1c6-2370-418c-b2f7-1e46febc4ee0"
                },
                "dateAsserted": "2014-07-24T12:00:00+05:30",
                "code": {
                    "coding": [
                        {
                            "system": "ICD10-BD",
                            "code": "M79.605",
                            "display": "Pain in left leg"
                        }
                    ]
                },
                "category": {
                    "coding": [
                        {
                            "system": "http://hl7.org/fhir/vs/condition-category",
                            "code": "Complaint",
                            "display": "Complaint"
                        }
                    ]
                },
                "status": "confirmed",
                "severity": {
                    "coding": [
                        {
                            "system": "http://hl7.org/fhir/vs/condition-severity",
                            "code": "6736007",
                            "display": "Moderate"
                        }
                    ]
                },
                "onsetDateTime": "2014-07-24T10:00:00+05:30"
            }
        }
    ]
}
